File: 20220408_SAS_AgBi3S5_LSV1.DTA
EXPLAIN
TAG	LSV
TITLE	LABEL		Test &Identifier
DATE	LABEL	7.4.2022	Date
TIME	LABEL	14:00:26	Time
NOTES	NOTES	2	&Notes...
	7,188938
	3,2644
PSTAT	PSTAT	REF600-23001	Potentiostat
VINIT	POTEN	-8,26000E-001	F	&Initial E (V)
VFINAL	POTEN	-1,62600E+000	F	&Final E (V)
SCANRATE	QUANT	4,99999E+000	&Scan Rate (mV/s)
STEPSIZE	QUANT	5,00000E-001	St&ep Size (mV)
IMODE	SELECTOR	0	I/E Range &Mode
IRANGE	QUANT	2,00000E+002	&Max Current (mA)
AREA	QUANT	1,00000E+000	Electrode &Area (cm^2)
ELECTRODETYPE	SELECTOR	0	Electrode Type
STRIPPING	TOGGLE	F	Used for Stripping
CONDIT	TWOPARAM	F	1,50000E+001	0,00000E+000	Conditionin&g	Time(s)	E(V)
DELAY	TWOPARAM	F	3,00000E+001	0,00000E+000	Init. De&lay	Time(s)	Stab.(mV/s)
EQDELAY	QUANT	1,00000E+001	Equil. &Time (s)
IRCOMP	SELECTOR	0	IRCom&p
PFCOR	QUANT	0,00000E+000	PF Corr. (ohm)
SAMPLINGMODE	SELECTOR	1	Sampling &Mode
EOC	QUANT	0	Open Circuit (V)
PSTATMODEL	IQUANT	4	Pstat Model
PSTATSECTION	LABEL	REF600-23001	Pstat Section
PSTATSERIALNO	LABEL	23001	Pstat Serial Number
CTRLMODE	IQUANT	1	Control Mode
ELECTROMETER	IQUANT	0	RE=0 or CS=1
IESTAB	IQUANT	2	I/E Stability
CASPEED	IQUANT	4	Control Amp Speed
CONVENTION	IQUANT	1	Current Convention
ICHRANGE	IQUANT	2	Ich Range
ICHRANGEMODE	TOGGLE	F	Ich Auto Range
ICHOFFSETENABLE	TOGGLE	F	Ich Offset Enable
ICHOFFSET	QUANT	0	Ich Offset (V)
ICHFILTER	IQUANT	2	Ich Filter
VCHRANGE	IQUANT	2	Vch Range
VCHRANGEMODE	TOGGLE	F	Vch Auto Range
VCHOFFSETENABLE	TOGGLE	F	Vch Offset Enable
VCHOFFSET	QUANT	0	Vch Offset (V)
VCHFILTER	IQUANT	2	Vch Filter
ACHRANGE	IQUANT	2	Ach Range
ACHOFFSETENABLE	TOGGLE	F	Ach Offset Enable
ACHOFFSET	QUANT	0	Ach Offset (V)
ACHFILTER	IQUANT	0	Ach Filter
IERANGELOWERLIMIT	IQUANT	1	I/E Range Lower Limit
IERANGEMODE	TOGGLE	T	I/E AutoRange
IERANGE	IQUANT	11	I/E Range
POSFEEDENABLE	TOGGLE	F	Positive Feedback IR Comp
POSFEEDRESISTANCE	QUANT	0	Positive Feedback Resistance (ohm)
ACHSELECT	IQUANT	4	Ach Select
SENSECABLEID	IQUANT	13	Sense Cable ID
PWRCABLEID	IQUANT	13	Power Cable ID
DCCALDATE	LABEL	2/25/2022	DC Calibration Date
ACCALDATE	LABEL	2/25/2022	AC Calibration Date
THERMOSELECT	IQUANT	1	Thermo Select
FRAMEWORKVERSION	LABEL	7.9.0	Framework Version
INSTRUMENTVERSION	LABEL	4.60	Instrument Version
CURVE	TABLE	1601
	Pt	T	Vf	Im	Vu	Sig	Ach	IERange	Over	Cycle	Temp
	#	s	V vs. Ref.	A	V	V	V	#	bits	#	deg C
	0	0,1	-8,25101E-001	-1,19814E-003	0,00000E+000	-8,26000E-001	4,40717E-005	11	...........	0	-327,67
	4	0,5	-8,27073E-001	-1,22143E-003	0,00000E+000	-8,28000E-001	4,86717E-005	9	...........	0	-327,67
	8	0,9	-8,29079E-001	-1,24663E-003	0,00000E+000	-8,30000E-001	4,96717E-005	9	...........	0	-327,67
	12	1,3	-8,31082E-001	-1,27304E-003	0,00000E+000	-8,32000E-001	4,72717E-005	9	...........	0	-327,67
	16	1,7	-8,33088E-001	-1,29831E-003	0,00000E+000	-8,34000E-001	4,50717E-005	9	...........	0	-327,67
	20	2,1	-8,35076E-001	-1,33227E-003	0,00000E+000	-8,36000E-001	4,66717E-005	9	...........	0	-327,67
	24	2,5	-8,37078E-001	-1,35013E-003	0,00000E+000	-8,38000E-001	5,60717E-005	9	...........	0	-327,67
	28	2,9	-8,39082E-001	-1,37180E-003	0,00000E+000	-8,40000E-001	4,86717E-005	9	...........	0	-327,67
	32	3,3	-8,41081E-001	-1,39911E-003	0,00000E+000	-8,42000E-001	4,22717E-005	9	...........	0	-327,67
	36	3,7	-8,43057E-001	-1,39874E-003	0,00000E+000	-8,44000E-001	4,30717E-005	9	...........	0	-327,67
	40	4,1	-8,45076E-001	-1,39261E-003	0,00000E+000	-8,46000E-001	5,38717E-005	9	...........	0	-327,67
	44	4,5	-8,47058E-001	-1,42520E-003	0,00000E+000	-8,48000E-001	4,24717E-005	9	...........	0	-327,67
	48	4,9	-8,49056E-001	-1,45561E-003	0,00000E+000	-8,50000E-001	4,60717E-005	9	...........	0	-327,67
	52	5,3	-8,51035E-001	-1,49625E-003	0,00000E+000	-8,52000E-001	4,52717E-005	9	...........	0	-327,67
	56	5,7	-8,53057E-001	-1,50616E-003	0,00000E+000	-8,54000E-001	4,60717E-005	9	...........	0	-327,67
	60	6,1	-8,55059E-001	-1,53419E-003	0,00000E+000	-8,56000E-001	4,54717E-005	9	...........	0	-327,67
	64	6,5	-8,57059E-001	-1,58045E-003	0,00000E+000	-8,58000E-001	4,62717E-005	9	...........	0	-327,67
	68	6,9	-8,59062E-001	-1,63561E-003	0,00000E+000	-8,60000E-001	5,08717E-005	9	...........	0	-327,67
	72	7,3	-8,61055E-001	-1,68974E-003	0,00000E+000	-8,62000E-001	4,68717E-005	9	...........	0	-327,67
	76	7,7	-8,63054E-001	-1,73942E-003	0,00000E+000	-8,64000E-001	4,64717E-005	9	...........	0	-327,67
	80	8,1	-8,65056E-001	-1,78887E-003	0,00000E+000	-8,66000E-001	4,72717E-005	9	...........	0	-327,67
	84	8,5	-8,67035E-001	-1,86002E-003	0,00000E+000	-8,68000E-001	5,10717E-005	9	...........	0	-327,67
	88	8,9	-8,69050E-001	-1,91800E-003	0,00000E+000	-8,70000E-001	5,24717E-005	9	...........	0	-327,67
	92	9,3	-8,71039E-001	-1,97277E-003	0,00000E+000	-8,72000E-001	5,02717E-005	9	...........	0	-327,67
	96	9,7	-8,73040E-001	-2,04847E-003	0,00000E+000	-8,74000E-001	5,02717E-005	9	...........	0	-327,67
	100	10,1	-8,75016E-001	-2,09289E-003	0,00000E+000	-8,76000E-001	4,26717E-005	9	...........	0	-327,67
	104	10,5	-8,77032E-001	-2,14495E-003	0,00000E+000	-8,78000E-001	4,96717E-005	9	...........	0	-327,67
	108	10,9	-8,79032E-001	-2,18169E-003	0,00000E+000	-8,80000E-001	5,28717E-005	9	...........	0	-327,67
	112	11,3	-8,81032E-001	-2,22330E-003	0,00000E+000	-8,82000E-001	4,86717E-005	9	...........	0	-327,67
	116	11,7	-8,83034E-001	-2,27966E-003	0,00000E+000	-8,84000E-001	4,88717E-005	9	...........	0	-327,67
	120	12,1	-8,85035E-001	-2,31377E-003	0,00000E+000	-8,86000E-001	4,56717E-005	9	...........	0	-327,67
	124	12,5	-8,87028E-001	-2,34640E-003	0,00000E+000	-8,88000E-001	4,34717E-005	9	...........	0	-327,67
	128	12,9	-8,89023E-001	-2,38051E-003	0,00000E+000	-8,90000E-001	5,04717E-005	9	...........	0	-327,67
	132	13,3	-8,91015E-001	-2,41581E-003	0,00000E+000	-8,92000E-001	5,58717E-005	9	...........	0	-327,67
	136	13,7	-8,93015E-001	-2,48487E-003	0,00000E+000	-8,94000E-001	4,98717E-005	9	...........	0	-327,67
	140	14,1	-8,95027E-001	-2,53157E-003	0,00000E+000	-8,96000E-001	4,20717E-005	9	...........	0	-327,67
	144	14,5	-8,97002E-001	-2,59080E-003	0,00000E+000	-8,98000E-001	4,80717E-005	9	...........	0	-327,67
	148	14,9	-8,98998E-001	-2,58116E-003	0,00000E+000	-9,00000E-001	4,90717E-005	9	...........	0	-327,67
	152	15,3	-9,00999E-001	-2,61846E-003	0,00000E+000	-9,02000E-001	4,88717E-005	9	...........	0	-327,67
	156	15,7	-9,03001E-001	-2,65246E-003	0,00000E+000	-9,04000E-001	4,98717E-005	9	...........	0	-327,67
	160	16,1	-9,05009E-001	-2,68257E-003	0,00000E+000	-9,06000E-001	4,88717E-005	9	...........	0	-327,67
	164	16,5	-9,06996E-001	-2,70302E-003	0,00000E+000	-9,08000E-001	5,10717E-005	9	...........	0	-327,67
	168	16,9	-9,09007E-001	-2,74115E-003	0,00000E+000	-9,10000E-001	5,38717E-005	9	...........	0	-327,67
	172	17,3	-9,10998E-001	-2,76556E-003	0,00000E+000	-9,12000E-001	5,06717E-005	9	...........	0	-327,67
	176	17,7	-9,13011E-001	-2,71000E-003	0,00000E+000	-9,14000E-001	4,58717E-005	9	...........	0	-327,67
	180	18,1	-9,15005E-001	-2,70333E-003	0,00000E+000	-9,16000E-001	5,04717E-005	9	...........	0	-327,67
	184	18,5	-9,17007E-001	-2,70050E-003	0,00000E+000	-9,18000E-001	4,68717E-005	9	...........	0	-327,67
	188	18,9	-9,18996E-001	-2,70874E-003	0,00000E+000	-9,20000E-001	5,06717E-005	9	...........	0	-327,67
	192	19,3	-9,21021E-001	-2,70428E-003	0,00000E+000	-9,22000E-001	4,34717E-005	9	...........	0	-327,67
	196	19,7	-9,22972E-001	-2,63871E-003	0,00000E+000	-9,24000E-001	4,66717E-005	9	...........	0	-327,67
	200	20,1	-9,24973E-001	-2,63422E-003	0,00000E+000	-9,26000E-001	4,92717E-005	9	...........	0	-327,67
	204	20,5	-9,26968E-001	-2,64592E-003	0,00000E+000	-9,28000E-001	5,28717E-005	9	...........	0	-327,67
	208	20,9	-9,28967E-001	-2,66299E-003	0,00000E+000	-9,30000E-001	5,04717E-005	9	...........	0	-327,67
	212	21,3	-9,30979E-001	-2,61474E-003	0,00000E+000	-9,32000E-001	4,94717E-005	9	...........	0	-327,67
	216	21,7	-9,32976E-001	-2,59207E-003	0,00000E+000	-9,34000E-001	5,40717E-005	9	...........	0	-327,67
	220	22,1	-9,34981E-001	-2,60193E-003	0,00000E+000	-9,36000E-001	5,18717E-005	9	...........	0	-327,67
	224	22,5	-9,36980E-001	-2,63605E-003	0,00000E+000	-9,38000E-001	4,06717E-005	9	...........	0	-327,67
	228	22,9	-9,38975E-001	-2,63524E-003	0,00000E+000	-9,40000E-001	4,18717E-005	9	...........	0	-327,67
	232	23,3	-9,40977E-001	-2,66939E-003	0,00000E+000	-9,42000E-001	5,50717E-005	9	...........	0	-327,67
	236	23,7	-9,42971E-001	-2,68642E-003	0,00000E+000	-9,44000E-001	5,00717E-005	9	...........	0	-327,67
	240	24,1	-9,44979E-001	-2,69535E-003	0,00000E+000	-9,46000E-001	4,32717E-005	9	...........	0	-327,67
	244	24,5	-9,46978E-001	-2,70982E-003	0,00000E+000	-9,48000E-001	4,86717E-005	9	...........	0	-327,67
	248	24,9	-9,48964E-001	-2,71754E-003	0,00000E+000	-9,50000E-001	4,16717E-005	9	...........	0	-327,67
	252	25,3	-9,50964E-001	-2,68009E-003	0,00000E+000	-9,52000E-001	4,62717E-005	9	...........	0	-327,67
	256	25,7	-9,52972E-001	-2,59178E-003	0,00000E+000	-9,54000E-001	4,92717E-005	9	...........	0	-327,67
	260	26,1	-9,54978E-001	-2,57117E-003	0,00000E+000	-9,56000E-001	4,54717E-005	9	...........	0	-327,67
	264	26,5	-9,56987E-001	-2,50350E-003	0,00000E+000	-9,58000E-001	5,20717E-005	9	...........	0	-327,67
	268	26,9	-9,58990E-001	-2,39375E-003	0,00000E+000	-9,60000E-001	4,76717E-005	9	...........	0	-327,67
	272	27,3	-9,60994E-001	-2,37284E-003	0,00000E+000	-9,62000E-001	4,02717E-005	9	...........	0	-327,67
	276	27,7	-9,62980E-001	-2,35699E-003	0,00000E+000	-9,64000E-001	5,38717E-005	9	...........	0	-327,67
	280	28,1	-9,64995E-001	-2,36059E-003	0,00000E+000	-9,66000E-001	5,36717E-005	9	...........	0	-327,67
	284	28,5	-9,66998E-001	-2,31205E-003	0,00000E+000	-9,68000E-001	4,88717E-005	9	...........	0	-327,67
	288	28,9	-9,69002E-001	-2,23266E-003	0,00000E+000	-9,70000E-001	4,58717E-005	9	...........	0	-327,67
	292	29,3	-9,70985E-001	-2,22978E-003	0,00000E+000	-9,72000E-001	5,34717E-005	9	...........	0	-327,67
	296	29,7	-9,72996E-001	-2,22953E-003	0,00000E+000	-9,74000E-001	5,02717E-005	9	...........	0	-327,67
	300	30,1	-9,74991E-001	-2,22407E-003	0,00000E+000	-9,76000E-001	5,62717E-005	9	...........	0	-327,67
	304	30,5	-9,76997E-001	-2,14636E-003	0,00000E+000	-9,78000E-001	5,66717E-005	9	...........	0	-327,67
	308	30,9	-9,78992E-001	-2,12267E-003	0,00000E+000	-9,80000E-001	4,80717E-005	9	...........	0	-327,67
	312	31,3	-9,81006E-001	-2,10889E-003	0,00000E+000	-9,82000E-001	5,02717E-005	9	...........	0	-327,67
	316	31,7	-9,83003E-001	-2,08470E-003	0,00000E+000	-9,84000E-001	5,12717E-005	9	...........	0	-327,67
	320	32,1	-9,85006E-001	-2,07445E-003	0,00000E+000	-9,86000E-001	4,46717E-005	9	...........	0	-327,67
	324	32,5	-9,87007E-001	-2,08089E-003	0,00000E+000	-9,88000E-001	5,00717E-005	9	...........	0	-327,67
	328	32,9	-9,89011E-001	-2,06884E-003	0,00000E+000	-9,90000E-001	4,48717E-005	9	...........	0	-327,67
	332	33,3	-9,91003E-001	-2,06517E-003	0,00000E+000	-9,92000E-001	4,94717E-005	9	...........	0	-327,67
	336	33,7	-9,93011E-001	-2,03373E-003	0,00000E+000	-9,94000E-001	4,76717E-005	9	...........	0	-327,67
	340	34,1	-9,95003E-001	-1,99240E-003	0,00000E+000	-9,96000E-001	4,80717E-005	9	...........	0	-327,67
	344	34,5	-9,97013E-001	-1,94291E-003	0,00000E+000	-9,98000E-001	5,06717E-005	9	...........	0	-327,67
	348	34,9	-9,99000E-001	-1,92033E-003	0,00000E+000	-1,00000E+000	5,44717E-005	9	...........	0	-327,67
	352	35,3	-1,00101E+000	-1,87988E-003	0,00000E+000	-1,00200E+000	4,52717E-005	9	...........	0	-327,67
	356	35,7	-1,00299E+000	-1,84995E-003	0,00000E+000	-1,00400E+000	5,48717E-005	9	...........	0	-327,67
	360	36,1	-1,00501E+000	-1,83255E-003	0,00000E+000	-1,00600E+000	4,76717E-005	9	...........	0	-327,67
	364	36,5	-1,00701E+000	-1,80310E-003	0,00000E+000	-1,00800E+000	4,40717E-005	9	...........	0	-327,67
	368	36,9	-1,00901E+000	-1,75768E-003	0,00000E+000	-1,01000E+000	5,22717E-005	9	...........	0	-327,67
	372	37,3	-1,01102E+000	-1,73732E-003	0,00000E+000	-1,01200E+000	5,12717E-005	9	...........	0	-327,67
	376	37,7	-1,01302E+000	-1,71032E-003	0,00000E+000	-1,01400E+000	4,62717E-005	9	...........	0	-327,67
	380	38,1	-1,01502E+000	-1,68948E-003	0,00000E+000	-1,01600E+000	5,04717E-005	9	...........	0	-327,67
	384	38,5	-1,01702E+000	-1,70012E-003	0,00000E+000	-1,01800E+000	4,50717E-005	9	...........	0	-327,67
	388	38,9	-1,01901E+000	-1,70954E-003	0,00000E+000	-1,02000E+000	4,90717E-005	9	...........	0	-327,67
	392	39,3	-1,02102E+000	-1,70780E-003	0,00000E+000	-1,02200E+000	5,10717E-005	9	...........	0	-327,67
	396	39,7	-1,02302E+000	-1,71930E-003	0,00000E+000	-1,02400E+000	4,86717E-005	9	...........	0	-327,67
	400	40,1	-1,02500E+000	-1,74011E-003	0,00000E+000	-1,02600E+000	5,36717E-005	9	...........	0	-327,67
	404	40,5	-1,02699E+000	-1,77206E-003	0,00000E+000	-1,02800E+000	5,30717E-005	9	...........	0	-327,67
	408	40,9	-1,02900E+000	-1,77248E-003	0,00000E+000	-1,03000E+000	5,02717E-005	9	...........	0	-327,67
	412	41,3	-1,03099E+000	-1,75835E-003	0,00000E+000	-1,03200E+000	5,16717E-005	9	...........	0	-327,67
	416	41,7	-1,03300E+000	-1,73598E-003	0,00000E+000	-1,03400E+000	5,76717E-005	9	...........	0	-327,67
	420	42,1	-1,03498E+000	-1,74281E-003	0,00000E+000	-1,03600E+000	3,02717E-005	9	...........	0	-327,67
	424	42,5	-1,03701E+000	-1,75804E-003	0,00000E+000	-1,03800E+000	5,22717E-005	9	...........	0	-327,67
	428	42,9	-1,03900E+000	-1,77931E-003	0,00000E+000	-1,04000E+000	4,80717E-005	9	...........	0	-327,67
	432	43,3	-1,04100E+000	-1,75967E-003	0,00000E+000	-1,04200E+000	5,26717E-005	9	...........	0	-327,67
	436	43,7	-1,04300E+000	-1,76282E-003	0,00000E+000	-1,04400E+000	4,54717E-005	9	...........	0	-327,67
	440	44,1	-1,04500E+000	-1,76419E-003	0,00000E+000	-1,04600E+000	4,12717E-005	9	...........	0	-327,67
	444	44,5	-1,04699E+000	-1,75876E-003	0,00000E+000	-1,04800E+000	4,54717E-005	9	...........	0	-327,67
	448	44,9	-1,04901E+000	-1,77004E-003	0,00000E+000	-1,05000E+000	4,58717E-005	9	...........	0	-327,67
	452	45,3	-1,05099E+000	-1,72188E-003	0,00000E+000	-1,05200E+000	4,86717E-005	9	...........	0	-327,67
	456	45,7	-1,05300E+000	-1,68303E-003	0,00000E+000	-1,05400E+000	5,74717E-005	9	...........	0	-327,67
	460	46,1	-1,05499E+000	-1,69171E-003	0,00000E+000	-1,05600E+000	5,28717E-005	9	...........	0	-327,67
	464	46,5	-1,05700E+000	-1,69867E-003	0,00000E+000	-1,05800E+000	4,98717E-005	9	...........	0	-327,67
	468	46,9	-1,05899E+000	-1,70614E-003	0,00000E+000	-1,06000E+000	4,60717E-005	9	...........	0	-327,67
	472	47,3	-1,06099E+000	-1,74898E-003	0,00000E+000	-1,06200E+000	4,74717E-005	9	...........	0	-327,67
	476	47,7	-1,06299E+000	-1,77633E-003	0,00000E+000	-1,06400E+000	4,56717E-005	9	...........	0	-327,67
	480	48,1	-1,06500E+000	-1,78583E-003	0,00000E+000	-1,06600E+000	5,08717E-005	9	...........	0	-327,67
	484	48,5	-1,06698E+000	-1,80668E-003	0,00000E+000	-1,06800E+000	4,84717E-005	9	...........	0	-327,67
	488	48,9	-1,06900E+000	-1,85384E-003	0,00000E+000	-1,07000E+000	5,50717E-005	9	...........	0	-327,67
	492	49,3	-1,07098E+000	-1,87287E-003	0,00000E+000	-1,07200E+000	4,94717E-005	9	...........	0	-327,67
	496	49,7	-1,07300E+000	-1,90657E-003	0,00000E+000	-1,07400E+000	4,58717E-005	9	...........	0	-327,67
	500	50,1	-1,07498E+000	-1,95686E-003	0,00000E+000	-1,07600E+000	4,80717E-005	9	...........	0	-327,67
	504	50,5	-1,07698E+000	-1,95543E-003	0,00000E+000	-1,07800E+000	5,08717E-005	9	...........	0	-327,67
	508	50,9	-1,07898E+000	-2,00934E-003	0,00000E+000	-1,08000E+000	5,30717E-005	9	...........	0	-327,67
	512	51,3	-1,08098E+000	-2,01232E-003	0,00000E+000	-1,08200E+000	4,64717E-005	9	...........	0	-327,67
	516	51,7	-1,08299E+000	-1,99984E-003	0,00000E+000	-1,08400E+000	5,30717E-005	9	...........	0	-327,67
	520	52,1	-1,08499E+000	-2,00488E-003	0,00000E+000	-1,08600E+000	5,38717E-005	9	...........	0	-327,67
	524	52,5	-1,08698E+000	-2,01644E-003	0,00000E+000	-1,08800E+000	4,18717E-005	9	...........	0	-327,67
	528	52,9	-1,08899E+000	-2,01658E-003	0,00000E+000	-1,09000E+000	4,44717E-005	9	...........	0	-327,67
	532	53,3	-1,09098E+000	-1,96200E-003	0,00000E+000	-1,09200E+000	4,52717E-005	9	...........	0	-327,67
	536	53,7	-1,09299E+000	-1,92375E-003	0,00000E+000	-1,09400E+000	4,32717E-005	9	...........	0	-327,67
	540	54,1	-1,09498E+000	-1,87102E-003	0,00000E+000	-1,09600E+000	4,86717E-005	9	...........	0	-327,67
	544	54,5	-1,09699E+000	-1,88378E-003	0,00000E+000	-1,09800E+000	4,90717E-005	9	...........	0	-327,67
	548	54,9	-1,09898E+000	-1,93244E-003	0,00000E+000	-1,10000E+000	5,82717E-005	9	...........	0	-327,67
	552	55,3	-1,10099E+000	-1,95918E-003	0,00000E+000	-1,10200E+000	5,54717E-005	9	...........	0	-327,67
	556	55,7	-1,10297E+000	-1,97145E-003	0,00000E+000	-1,10400E+000	4,60717E-005	9	...........	0	-327,67
	560	56,1	-1,10497E+000	-1,98825E-003	0,00000E+000	-1,10600E+000	5,22717E-005	9	...........	0	-327,67
	564	56,5	-1,10697E+000	-2,02691E-003	0,00000E+000	-1,10800E+000	5,20717E-005	9	...........	0	-327,67
	568	56,9	-1,10898E+000	-2,01674E-003	0,00000E+000	-1,11000E+000	4,26717E-005	9	...........	0	-327,67
	572	57,3	-1,11096E+000	-2,03762E-003	0,00000E+000	-1,11200E+000	5,10717E-005	9	...........	0	-327,67
	576	57,7	-1,11298E+000	-2,03397E-003	0,00000E+000	-1,11400E+000	5,12717E-005	9	...........	0	-327,67
	580	58,1	-1,11498E+000	-2,05638E-003	0,00000E+000	-1,11600E+000	5,12717E-005	9	...........	0	-327,67
	584	58,5	-1,11698E+000	-2,11637E-003	0,00000E+000	-1,11800E+000	4,90717E-005	9	...........	0	-327,67
	588	58,9	-1,11897E+000	-2,17193E-003	0,00000E+000	-1,12000E+000	4,54717E-005	9	...........	0	-327,67
	592	59,3	-1,12097E+000	-2,20504E-003	0,00000E+000	-1,12200E+000	4,46717E-005	9	...........	0	-327,67
	596	59,7	-1,12296E+000	-2,24156E-003	0,00000E+000	-1,12400E+000	5,34717E-005	9	...........	0	-327,67
	600	60,1	-1,12497E+000	-2,26340E-003	0,00000E+000	-1,12600E+000	5,06717E-005	9	...........	0	-327,67
	604	60,5	-1,12693E+000	-2,26697E-003	0,00000E+000	-1,12800E+000	5,26717E-005	9	...........	0	-327,67
	608	60,9	-1,12892E+000	-2,28116E-003	0,00000E+000	-1,13000E+000	5,12717E-005	9	...........	0	-327,67
	612	61,3	-1,13092E+000	-2,30703E-003	0,00000E+000	-1,13200E+000	4,48717E-005	9	...........	0	-327,67
	616	61,7	-1,13293E+000	-2,28930E-003	0,00000E+000	-1,13400E+000	5,16717E-005	9	...........	0	-327,67
	620	62,1	-1,13493E+000	-2,29738E-003	0,00000E+000	-1,13600E+000	4,24717E-005	9	...........	0	-327,67
	624	62,5	-1,13693E+000	-2,31048E-003	0,00000E+000	-1,13800E+000	4,78717E-005	9	...........	0	-327,67
	628	62,9	-1,13893E+000	-2,32735E-003	0,00000E+000	-1,14000E+000	4,38717E-005	9	...........	0	-327,67
	632	63,3	-1,14094E+000	-2,20868E-003	0,00000E+000	-1,14200E+000	4,70717E-005	9	...........	0	-327,67
	636	63,7	-1,14293E+000	-2,15573E-003	0,00000E+000	-1,14400E+000	4,94717E-005	9	...........	0	-327,67
	640	64,1	-1,14494E+000	-2,14330E-003	0,00000E+000	-1,14600E+000	4,52717E-005	9	...........	0	-327,67
	644	64,5	-1,14694E+000	-2,13889E-003	0,00000E+000	-1,14800E+000	4,30717E-005	9	...........	0	-327,67
	648	64,9	-1,14895E+000	-2,10744E-003	0,00000E+000	-1,15000E+000	4,76717E-005	9	...........	0	-327,67
	652	65,3	-1,15094E+000	-2,10498E-003	0,00000E+000	-1,15200E+000	4,28717E-005	9	...........	0	-327,67
	656	65,7	-1,15294E+000	-2,08343E-003	0,00000E+000	-1,15400E+000	5,08717E-005	9	...........	0	-327,67
	660	66,1	-1,15493E+000	-2,05537E-003	0,00000E+000	-1,15600E+000	4,88717E-005	9	...........	0	-327,67
	664	66,5	-1,15693E+000	-2,10125E-003	0,00000E+000	-1,15800E+000	4,82717E-005	9	...........	0	-327,67
	668	66,9	-1,15894E+000	-2,06968E-003	0,00000E+000	-1,16000E+000	4,44717E-005	9	...........	0	-327,67
	672	67,3	-1,16094E+000	-2,01921E-003	0,00000E+000	-1,16200E+000	4,74717E-005	9	...........	0	-327,67
	676	67,7	-1,16295E+000	-1,99463E-003	0,00000E+000	-1,16400E+000	5,02717E-005	9	...........	0	-327,67
	680	68,1	-1,16495E+000	-2,01658E-003	0,00000E+000	-1,16600E+000	4,12717E-005	9	...........	0	-327,67
	684	68,5	-1,16694E+000	-2,00856E-003	0,00000E+000	-1,16800E+000	4,36717E-005	9	...........	0	-327,67
	688	68,9	-1,16894E+000	-2,03019E-003	0,00000E+000	-1,17000E+000	4,34717E-005	9	...........	0	-327,67
	692	69,3	-1,17095E+000	-2,02171E-003	0,00000E+000	-1,17200E+000	4,96717E-005	9	...........	0	-327,67
	696	69,7	-1,17295E+000	-1,95659E-003	0,00000E+000	-1,17400E+000	4,82717E-005	9	...........	0	-327,67
	700	70,1	-1,17494E+000	-1,96924E-003	0,00000E+000	-1,17600E+000	4,68717E-005	9	...........	0	-327,67
	704	70,5	-1,17697E+000	-1,95922E-003	0,00000E+000	-1,17800E+000	5,34717E-005	9	...........	0	-327,67
	708	70,9	-1,17895E+000	-1,96784E-003	0,00000E+000	-1,18000E+000	4,58717E-005	9	...........	0	-327,67
	712	71,3	-1,18094E+000	-1,97280E-003	0,00000E+000	-1,18200E+000	4,60717E-005	9	...........	0	-327,67
	716	71,7	-1,18293E+000	-1,97825E-003	0,00000E+000	-1,18400E+000	4,28717E-005	9	...........	0	-327,67
	720	72,1	-1,18494E+000	-1,97804E-003	0,00000E+000	-1,18600E+000	5,48717E-005	9	...........	0	-327,67
	724	72,5	-1,18696E+000	-1,99340E-003	0,00000E+000	-1,18800E+000	4,64717E-005	9	...........	0	-327,67
	728	72,9	-1,18895E+000	-1,97333E-003	0,00000E+000	-1,19000E+000	5,58717E-005	9	...........	0	-327,67
	732	73,3	-1,19095E+000	-1,99981E-003	0,00000E+000	-1,19200E+000	4,54717E-005	9	...........	0	-327,67
	736	73,7	-1,19295E+000	-1,99706E-003	0,00000E+000	-1,19400E+000	4,68717E-005	9	...........	0	-327,67
	740	74,1	-1,19495E+000	-1,98244E-003	0,00000E+000	-1,19600E+000	3,96717E-005	9	...........	0	-327,67
	744	74,5	-1,19696E+000	-1,96882E-003	0,00000E+000	-1,19800E+000	5,62717E-005	9	...........	0	-327,67
	748	74,9	-1,19894E+000	-1,96545E-003	0,00000E+000	-1,20000E+000	4,30717E-005	9	...........	0	-327,67
	752	75,3	-1,20095E+000	-1,98069E-003	0,00000E+000	-1,20200E+000	5,88717E-005	9	...........	0	-327,67
	756	75,7	-1,20295E+000	-1,96343E-003	0,00000E+000	-1,20400E+000	5,18717E-005	9	...........	0	-327,67
	760	76,1	-1,20494E+000	-1,96193E-003	0,00000E+000	-1,20600E+000	5,22717E-005	9	...........	0	-327,67
	764	76,5	-1,20692E+000	-1,94775E-003	0,00000E+000	-1,20800E+000	4,96717E-005	9	...........	0	-327,67
	768	76,9	-1,20892E+000	-1,95262E-003	0,00000E+000	-1,21000E+000	4,62717E-005	9	...........	0	-327,67
	772	77,3	-1,21095E+000	-1,91888E-003	0,00000E+000	-1,21200E+000	5,04717E-005	9	...........	0	-327,67
	776	77,7	-1,21294E+000	-1,90033E-003	0,00000E+000	-1,21400E+000	4,78717E-005	9	...........	0	-327,67
	780	78,1	-1,21493E+000	-1,90945E-003	0,00000E+000	-1,21600E+000	4,86717E-005	9	...........	0	-327,67
	784	78,5	-1,21695E+000	-1,88686E-003	0,00000E+000	-1,21800E+000	4,48717E-005	9	...........	0	-327,67
	788	78,9	-1,21894E+000	-1,89949E-003	0,00000E+000	-1,22000E+000	4,42717E-005	9	...........	0	-327,67
	792	79,3	-1,22095E+000	-1,91041E-003	0,00000E+000	-1,22200E+000	5,60717E-005	9	...........	0	-327,67
	796	79,7	-1,22294E+000	-1,89175E-003	0,00000E+000	-1,22400E+000	4,68717E-005	9	...........	0	-327,67
	800	80,1	-1,22494E+000	-1,88373E-003	0,00000E+000	-1,22600E+000	4,64717E-005	9	...........	0	-327,67
	804	80,5	-1,22693E+000	-1,88646E-003	0,00000E+000	-1,22800E+000	4,88717E-005	9	...........	0	-327,67
	808	80,9	-1,22896E+000	-1,88768E-003	0,00000E+000	-1,23000E+000	5,12717E-005	9	...........	0	-327,67
	812	81,3	-1,23095E+000	-1,93600E-003	0,00000E+000	-1,23200E+000	5,16717E-005	9	...........	0	-327,67
	816	81,7	-1,23296E+000	-1,91647E-003	0,00000E+000	-1,23400E+000	5,26717E-005	9	...........	0	-327,67
	820	82,1	-1,23496E+000	-1,86999E-003	0,00000E+000	-1,23600E+000	5,26717E-005	9	...........	0	-327,67
	824	82,5	-1,23697E+000	-1,88145E-003	0,00000E+000	-1,23800E+000	5,20717E-005	9	...........	0	-327,67
	828	82,9	-1,23895E+000	-1,89818E-003	0,00000E+000	-1,24000E+000	4,88717E-005	9	...........	0	-327,67
	832	83,3	-1,24097E+000	-1,87035E-003	0,00000E+000	-1,24200E+000	4,96717E-005	9	...........	0	-327,67
	836	83,7	-1,24297E+000	-1,86570E-003	0,00000E+000	-1,24400E+000	5,70717E-005	9	...........	0	-327,67
	840	84,1	-1,24497E+000	-1,85963E-003	0,00000E+000	-1,24600E+000	4,14717E-005	9	...........	0	-327,67
	844	84,5	-1,24697E+000	-1,88924E-003	0,00000E+000	-1,24800E+000	5,34717E-005	9	...........	0	-327,67
	848	84,9	-1,24897E+000	-1,88892E-003	0,00000E+000	-1,25000E+000	4,78717E-005	9	...........	0	-327,67
	852	85,3	-1,25096E+000	-1,89537E-003	0,00000E+000	-1,25200E+000	5,08717E-005	9	...........	0	-327,67
	856	85,7	-1,25297E+000	-1,91774E-003	0,00000E+000	-1,25400E+000	4,96717E-005	9	...........	0	-327,67
	860	86,1	-1,25495E+000	-1,86641E-003	0,00000E+000	-1,25600E+000	4,56717E-005	9	...........	0	-327,67
	864	86,5	-1,25696E+000	-1,86888E-003	0,00000E+000	-1,25800E+000	5,00717E-005	9	...........	0	-327,67
	868	86,9	-1,25894E+000	-1,89837E-003	0,00000E+000	-1,26000E+000	4,24717E-005	9	...........	0	-327,67
	872	87,3	-1,26095E+000	-1,92225E-003	0,00000E+000	-1,26200E+000	4,50717E-005	9	...........	0	-327,67
	876	87,7	-1,26294E+000	-1,87289E-003	0,00000E+000	-1,26400E+000	5,22717E-005	9	...........	0	-327,67
	880	88,1	-1,26496E+000	-1,87849E-003	0,00000E+000	-1,26600E+000	4,56717E-005	9	...........	0	-327,67
	884	88,5	-1,26696E+000	-1,88084E-003	0,00000E+000	-1,26800E+000	5,46717E-005	9	...........	0	-327,67
	888	88,9	-1,26897E+000	-1,89185E-003	0,00000E+000	-1,27000E+000	4,52717E-005	9	...........	0	-327,67
	892	89,3	-1,27095E+000	-1,90017E-003	0,00000E+000	-1,27200E+000	4,52717E-005	9	...........	0	-327,67
	896	89,7	-1,27296E+000	-1,96590E-003	0,00000E+000	-1,27400E+000	5,20717E-005	9	...........	0	-327,67
	900	90,1	-1,27495E+000	-1,93443E-003	0,00000E+000	-1,27600E+000	4,64717E-005	9	...........	0	-327,67
	904	90,5	-1,27696E+000	-1,92027E-003	0,00000E+000	-1,27800E+000	4,48717E-005	9	...........	0	-327,67
	908	90,9	-1,27896E+000	-1,94810E-003	0,00000E+000	-1,28000E+000	4,56717E-005	9	...........	0	-327,67
	912	91,3	-1,28096E+000	-1,95576E-003	0,00000E+000	-1,28200E+000	4,42717E-005	9	...........	0	-327,67
	916	91,7	-1,28295E+000	-1,96533E-003	0,00000E+000	-1,28400E+000	4,70717E-005	9	...........	0	-327,67
	920	92,1	-1,28494E+000	-1,95783E-003	0,00000E+000	-1,28600E+000	3,94717E-005	9	...........	0	-327,67
	924	92,5	-1,28695E+000	-1,96620E-003	0,00000E+000	-1,28800E+000	5,22717E-005	9	...........	0	-327,67
	928	92,9	-1,28896E+000	-1,93991E-003	0,00000E+000	-1,29000E+000	5,54717E-005	9	...........	0	-327,67
	932	93,3	-1,29096E+000	-1,92492E-003	0,00000E+000	-1,29200E+000	4,80717E-005	9	...........	0	-327,67
	936	93,7	-1,29296E+000	-1,94907E-003	0,00000E+000	-1,29400E+000	5,36717E-005	9	...........	0	-327,67
	940	94,1	-1,29496E+000	-1,95724E-003	0,00000E+000	-1,29600E+000	5,00717E-005	9	...........	0	-327,67
	944	94,5	-1,29696E+000	-1,93215E-003	0,00000E+000	-1,29800E+000	4,82717E-005	9	...........	0	-327,67
	948	94,9	-1,29896E+000	-1,95883E-003	0,00000E+000	-1,30000E+000	4,82717E-005	9	...........	0	-327,67
	952	95,3	-1,30097E+000	-1,95423E-003	0,00000E+000	-1,30200E+000	4,74717E-005	9	...........	0	-327,67
	956	95,7	-1,30295E+000	-1,94875E-003	0,00000E+000	-1,30400E+000	4,84717E-005	9	...........	0	-327,67
	960	96,1	-1,30497E+000	-1,95274E-003	0,00000E+000	-1,30600E+000	4,54717E-005	9	...........	0	-327,67
	964	96,5	-1,30695E+000	-1,96560E-003	0,00000E+000	-1,30800E+000	4,98717E-005	9	...........	0	-327,67
	968	96,9	-1,30895E+000	-1,95370E-003	0,00000E+000	-1,31000E+000	4,98717E-005	9	...........	0	-327,67
	972	97,3	-1,31095E+000	-1,96715E-003	0,00000E+000	-1,31200E+000	4,82717E-005	9	...........	0	-327,67
	976	97,7	-1,31295E+000	-1,98090E-003	0,00000E+000	-1,31400E+000	4,94717E-005	9	...........	0	-327,67
	980	98,1	-1,31496E+000	-1,99872E-003	0,00000E+000	-1,31600E+000	5,00717E-005	9	...........	0	-327,67
	984	98,5	-1,31696E+000	-1,98024E-003	0,00000E+000	-1,31800E+000	5,10717E-005	9	...........	0	-327,67
	988	98,9	-1,31895E+000	-1,99921E-003	0,00000E+000	-1,32000E+000	5,44717E-005	9	...........	0	-327,67
	992	99,3	-1,32095E+000	-2,01040E-003	0,00000E+000	-1,32200E+000	4,86717E-005	9	...........	0	-327,67
	996	99,7	-1,32295E+000	-2,05502E-003	0,00000E+000	-1,32400E+000	4,74717E-005	9	...........	0	-327,67
	1000	100,1	-1,32496E+000	-2,04168E-003	0,00000E+000	-1,32600E+000	5,98717E-005	9	...........	0	-327,67
	1004	100,5	-1,32694E+000	-2,05176E-003	0,00000E+000	-1,32800E+000	5,32717E-005	9	...........	0	-327,67
	1008	100,9	-1,32894E+000	-2,05137E-003	0,00000E+000	-1,33000E+000	5,56717E-005	9	...........	0	-327,67
	1012	101,3	-1,33095E+000	-2,06310E-003	0,00000E+000	-1,33200E+000	5,04717E-005	9	...........	0	-327,67
	1016	101,7	-1,33291E+000	-2,09137E-003	0,00000E+000	-1,33400E+000	5,54717E-005	9	...........	0	-327,67
	1020	102,1	-1,33490E+000	-2,09170E-003	0,00000E+000	-1,33600E+000	5,58717E-005	9	...........	0	-327,67
	1024	102,5	-1,33691E+000	-2,07984E-003	0,00000E+000	-1,33800E+000	4,72717E-005	9	...........	0	-327,67
	1028	102,9	-1,33894E+000	-2,09768E-003	0,00000E+000	-1,34000E+000	4,76717E-005	9	...........	0	-327,67
	1032	103,3	-1,34092E+000	-2,08974E-003	0,00000E+000	-1,34200E+000	5,20717E-005	9	...........	0	-327,67
	1036	103,7	-1,34291E+000	-2,08377E-003	0,00000E+000	-1,34400E+000	4,86717E-005	9	...........	0	-327,67
	1040	104,1	-1,34492E+000	-2,10032E-003	0,00000E+000	-1,34600E+000	4,84717E-005	9	...........	0	-327,67
	1044	104,5	-1,34691E+000	-2,10332E-003	0,00000E+000	-1,34800E+000	4,42717E-005	9	...........	0	-327,67
	1048	104,9	-1,34892E+000	-2,07057E-003	0,00000E+000	-1,35000E+000	4,22717E-005	9	...........	0	-327,67
	1052	105,3	-1,35092E+000	-2,06523E-003	0,00000E+000	-1,35200E+000	5,08717E-005	9	...........	0	-327,67
	1056	105,7	-1,35292E+000	-2,09444E-003	0,00000E+000	-1,35400E+000	4,26717E-005	9	...........	0	-327,67
	1060	106,1	-1,35491E+000	-2,11333E-003	0,00000E+000	-1,35600E+000	5,10717E-005	9	...........	0	-327,67
	1064	106,5	-1,35691E+000	-2,10362E-003	0,00000E+000	-1,35800E+000	4,36717E-005	9	...........	0	-327,67
	1068	106,9	-1,35889E+000	-2,13510E-003	0,00000E+000	-1,36000E+000	5,72717E-005	9	...........	0	-327,67
	1072	107,3	-1,36090E+000	-2,14227E-003	0,00000E+000	-1,36200E+000	5,56717E-005	9	...........	0	-327,67
	1076	107,7	-1,36291E+000	-2,09591E-003	0,00000E+000	-1,36400E+000	4,38717E-005	9	...........	0	-327,67
	1080	108,1	-1,36491E+000	-2,13931E-003	0,00000E+000	-1,36600E+000	5,68717E-005	9	...........	0	-327,67
	1084	108,5	-1,36690E+000	-2,18163E-003	0,00000E+000	-1,36800E+000	5,52717E-005	9	...........	0	-327,67
	1088	108,9	-1,36890E+000	-2,20691E-003	0,00000E+000	-1,37000E+000	4,68717E-005	9	...........	0	-327,67
	1092	109,3	-1,37090E+000	-2,15304E-003	0,00000E+000	-1,37200E+000	5,28717E-005	9	...........	0	-327,67
	1096	109,7	-1,37290E+000	-2,20094E-003	0,00000E+000	-1,37400E+000	4,42717E-005	9	...........	0	-327,67
	1100	110,1	-1,37489E+000	-2,21056E-003	0,00000E+000	-1,37600E+000	4,56717E-005	9	...........	0	-327,67
	1104	110,5	-1,37691E+000	-2,21605E-003	0,00000E+000	-1,37800E+000	4,22717E-005	9	...........	0	-327,67
	1108	110,9	-1,37890E+000	-2,28900E-003	0,00000E+000	-1,38000E+000	5,20717E-005	9	...........	0	-327,67
	1112	111,3	-1,38090E+000	-2,24658E-003	0,00000E+000	-1,38200E+000	4,72717E-005	9	...........	0	-327,67
	1116	111,7	-1,38290E+000	-2,23449E-003	0,00000E+000	-1,38400E+000	4,78717E-005	9	...........	0	-327,67
	1120	112,1	-1,38490E+000	-2,24664E-003	0,00000E+000	-1,38600E+000	5,48717E-005	9	...........	0	-327,67
	1124	112,5	-1,38690E+000	-2,29258E-003	0,00000E+000	-1,38800E+000	5,12717E-005	9	...........	0	-327,67
	1128	112,9	-1,38889E+000	-2,33565E-003	0,00000E+000	-1,39000E+000	5,24717E-005	9	...........	0	-327,67
	1132	113,3	-1,39089E+000	-2,30858E-003	0,00000E+000	-1,39200E+000	5,60717E-005	9	...........	0	-327,67
	1136	113,7	-1,39290E+000	-2,34895E-003	0,00000E+000	-1,39400E+000	4,84717E-005	9	...........	0	-327,67
	1140	114,1	-1,39489E+000	-2,35421E-003	0,00000E+000	-1,39600E+000	4,82717E-005	9	...........	0	-327,67
	1144	114,5	-1,39691E+000	-2,36515E-003	0,00000E+000	-1,39800E+000	5,04717E-005	9	...........	0	-327,67
	1148	114,9	-1,39889E+000	-2,42070E-003	0,00000E+000	-1,40000E+000	4,78717E-005	9	...........	0	-327,67
	1152	115,3	-1,40089E+000	-2,44235E-003	0,00000E+000	-1,40200E+000	4,52717E-005	9	...........	0	-327,67
	1156	115,7	-1,40289E+000	-2,43434E-003	0,00000E+000	-1,40400E+000	4,98717E-005	9	...........	0	-327,67
	1160	116,1	-1,40488E+000	-2,46552E-003	0,00000E+000	-1,40600E+000	4,88717E-005	9	...........	0	-327,67
	1164	116,5	-1,40690E+000	-2,49121E-003	0,00000E+000	-1,40800E+000	4,66717E-005	9	...........	0	-327,67
	1168	116,9	-1,40888E+000	-2,49079E-003	0,00000E+000	-1,41000E+000	5,58717E-005	9	...........	0	-327,67
	1172	117,3	-1,41087E+000	-2,51193E-003	0,00000E+000	-1,41200E+000	4,40717E-005	9	...........	0	-327,67
	1176	117,7	-1,41287E+000	-2,58459E-003	0,00000E+000	-1,41400E+000	5,04717E-005	9	...........	0	-327,67
	1180	118,1	-1,41486E+000	-2,58388E-003	0,00000E+000	-1,41600E+000	4,48717E-005	9	...........	0	-327,67
	1184	118,5	-1,41688E+000	-2,59327E-003	0,00000E+000	-1,41800E+000	5,04717E-005	9	...........	0	-327,67
	1188	118,9	-1,41888E+000	-2,63783E-003	0,00000E+000	-1,42000E+000	4,28717E-005	9	...........	0	-327,67
	1192	119,3	-1,42088E+000	-2,67577E-003	0,00000E+000	-1,42200E+000	5,64717E-005	9	...........	0	-327,67
	1196	119,7	-1,42288E+000	-2,68230E-003	0,00000E+000	-1,42400E+000	4,66717E-005	9	...........	0	-327,67
	1200	120,1	-1,42488E+000	-2,72178E-003	0,00000E+000	-1,42600E+000	5,22717E-005	9	...........	0	-327,67
	1204	120,5	-1,42688E+000	-2,77605E-003	0,00000E+000	-1,42800E+000	4,52717E-005	9	...........	0	-327,67
	1208	120,9	-1,42887E+000	-2,79636E-003	0,00000E+000	-1,43000E+000	4,38717E-005	9	...........	0	-327,67
	1212	121,3	-1,43086E+000	-2,83638E-003	0,00000E+000	-1,43200E+000	4,64717E-005	9	...........	0	-327,67
	1216	121,7	-1,43286E+000	-2,93623E-003	0,00000E+000	-1,43400E+000	5,06717E-005	9	...........	0	-327,67
	1220	122,1	-1,43484E+000	-2,97894E-003	0,00000E+000	-1,43600E+000	5,38717E-005	9	...........	0	-327,67
	1224	122,5	-1,43682E+000	-3,05690E-003	0,00000E+000	-1,43800E+000	4,86717E-005	9	...........	0	-327,67
	1228	122,9	-1,43883E+000	-3,16961E-003	0,00000E+000	-1,44000E+000	5,12717E-005	9	...........	0	-327,67
	1232	123,3	-1,44082E+000	-3,19313E-003	0,00000E+000	-1,44200E+000	5,14717E-005	9	...........	0	-327,67
	1236	123,7	-1,44283E+000	-3,19890E-003	0,00000E+000	-1,44400E+000	5,08717E-005	9	...........	0	-327,67
	1240	124,1	-1,44482E+000	-3,16665E-003	0,00000E+000	-1,44600E+000	4,58717E-005	9	...........	0	-327,67
	1244	124,5	-1,44684E+000	-3,26843E-003	0,00000E+000	-1,44800E+000	5,54717E-005	9	...........	0	-327,67
	1248	124,9	-1,44883E+000	-3,36003E-003	0,00000E+000	-1,45000E+000	4,98717E-005	9	...........	0	-327,67
	1252	125,3	-1,45083E+000	-3,41092E-003	0,00000E+000	-1,45200E+000	4,78717E-005	9	...........	0	-327,67
	1256	125,7	-1,45282E+000	-3,52667E-003	0,00000E+000	-1,45400E+000	5,30717E-005	9	...........	0	-327,67
	1260	126,1	-1,45482E+000	-3,60530E-003	0,00000E+000	-1,45600E+000	3,92717E-005	9	...........	0	-327,67
	1264	126,5	-1,45680E+000	-3,71297E-003	0,00000E+000	-1,45800E+000	5,08717E-005	9	...........	0	-327,67
	1268	126,9	-1,45882E+000	-3,80451E-003	0,00000E+000	-1,46000E+000	5,12717E-005	9	...........	0	-327,67
	1272	127,3	-1,46078E+000	-3,87902E-003	0,00000E+000	-1,46200E+000	5,40717E-005	9	...........	0	-327,67
	1276	127,7	-1,46278E+000	-3,94416E-003	0,00000E+000	-1,46400E+000	5,42717E-005	9	...........	0	-327,67
	1280	128,1	-1,46477E+000	-4,04576E-003	0,00000E+000	-1,46600E+000	5,68717E-005	9	...........	0	-327,67
	1284	128,5	-1,46676E+000	-4,12541E-003	0,00000E+000	-1,46800E+000	4,66717E-005	9	...........	0	-327,67
	1288	128,9	-1,46876E+000	-4,21542E-003	0,00000E+000	-1,47000E+000	5,48717E-005	9	...........	0	-327,67
	1292	129,3	-1,47076E+000	-4,28653E-003	0,00000E+000	-1,47200E+000	5,56717E-005	9	...........	0	-327,67
	1296	129,7	-1,47278E+000	-4,39580E-003	0,00000E+000	-1,47400E+000	4,64717E-005	9	...........	0	-327,67
	1300	130,1	-1,47477E+000	-4,52209E-003	0,00000E+000	-1,47600E+000	4,56717E-005	9	...........	0	-327,67
	1304	130,5	-1,47676E+000	-4,56432E-003	0,00000E+000	-1,47800E+000	4,10717E-005	9	...........	0	-327,67
	1308	130,9	-1,47876E+000	-4,65538E-003	0,00000E+000	-1,48000E+000	4,46717E-005	9	...........	0	-327,67
	1312	131,3	-1,48075E+000	-4,79545E-003	0,00000E+000	-1,48200E+000	4,84717E-005	9	...........	0	-327,67
	1316	131,7	-1,48275E+000	-4,90731E-003	0,00000E+000	-1,48400E+000	4,94717E-005	9	...........	0	-327,67
	1320	132,1	-1,48473E+000	-5,10208E-003	0,00000E+000	-1,48600E+000	5,74717E-005	9	...........	0	-327,67
	1324	132,5	-1,48672E+000	-5,21221E-003	0,00000E+000	-1,48800E+000	5,06717E-005	9	...........	0	-327,67
	1328	132,9	-1,48872E+000	-5,21331E-003	0,00000E+000	-1,49000E+000	5,16717E-005	9	...........	0	-327,67
	1332	133,3	-1,49094E+000	-5,36353E-003	0,00000E+000	-1,49200E+000	5,06717E-005	10	...........	0	-327,67
	1336	133,7	-1,49294E+000	-5,65256E-003	0,00000E+000	-1,49400E+000	4,36717E-005	10	...........	0	-327,67
	1340	134,1	-1,49493E+000	-5,77714E-003	0,00000E+000	-1,49600E+000	4,68717E-005	10	...........	0	-327,67
	1344	134,5	-1,49695E+000	-5,82055E-003	0,00000E+000	-1,49800E+000	5,02717E-005	10	...........	0	-327,67
	1348	134,9	-1,49894E+000	-5,91550E-003	0,00000E+000	-1,50000E+000	5,30717E-005	10	...........	0	-327,67
	1352	135,3	-1,50095E+000	-5,92185E-003	0,00000E+000	-1,50200E+000	4,58717E-005	10	...........	0	-327,67
	1356	135,7	-1,50294E+000	-6,06931E-003	0,00000E+000	-1,50400E+000	4,46717E-005	10	...........	0	-327,67
	1360	136,1	-1,50495E+000	-6,18809E-003	0,00000E+000	-1,50600E+000	5,12717E-005	10	...........	0	-327,67
	1364	136,5	-1,50693E+000	-6,46570E-003	0,00000E+000	-1,50800E+000	5,82717E-005	10	...........	0	-327,67
	1368	136,9	-1,50893E+000	-6,56682E-003	0,00000E+000	-1,51000E+000	4,70717E-005	10	...........	0	-327,67
	1372	137,3	-1,51091E+000	-6,69796E-003	0,00000E+000	-1,51200E+000	4,64717E-005	10	...........	0	-327,67
	1376	137,7	-1,51292E+000	-6,81806E-003	0,00000E+000	-1,51400E+000	4,90717E-005	10	...........	0	-327,67
	1380	138,1	-1,51492E+000	-7,01484E-003	0,00000E+000	-1,51600E+000	5,56717E-005	10	...........	0	-327,67
	1384	138,5	-1,51692E+000	-7,11857E-003	0,00000E+000	-1,51800E+000	5,32717E-005	10	...........	0	-327,67
	1388	138,9	-1,51892E+000	-7,27059E-003	0,00000E+000	-1,52000E+000	5,44717E-005	10	...........	0	-327,67
	1392	139,3	-1,52092E+000	-7,37077E-003	0,00000E+000	-1,52200E+000	4,30717E-005	10	...........	0	-327,67
	1396	139,7	-1,52293E+000	-7,54494E-003	0,00000E+000	-1,52400E+000	4,28717E-005	10	...........	0	-327,67
	1400	140,1	-1,52493E+000	-7,62533E-003	0,00000E+000	-1,52600E+000	4,86717E-005	10	...........	0	-327,67
	1404	140,5	-1,52692E+000	-7,80615E-003	0,00000E+000	-1,52800E+000	4,40717E-005	10	...........	0	-327,67
	1408	140,9	-1,52892E+000	-7,88101E-003	0,00000E+000	-1,53000E+000	4,98717E-005	10	...........	0	-327,67
	1412	141,3	-1,53093E+000	-7,98834E-003	0,00000E+000	-1,53200E+000	5,50717E-005	10	...........	0	-327,67
	1416	141,7	-1,53293E+000	-8,21899E-003	0,00000E+000	-1,53400E+000	4,26717E-005	10	...........	0	-327,67
	1420	142,1	-1,53492E+000	-8,44452E-003	0,00000E+000	-1,53600E+000	4,74717E-005	10	...........	0	-327,67
	1424	142,5	-1,53689E+000	-8,87152E-003	0,00000E+000	-1,53800E+000	5,52717E-005	10	...........	0	-327,67
	1428	142,9	-1,53888E+000	-9,27343E-003	0,00000E+000	-1,54000E+000	4,44717E-005	10	...........	0	-327,67
	1432	143,3	-1,54088E+000	-9,63107E-003	0,00000E+000	-1,54200E+000	5,08717E-005	10	...........	0	-327,67
	1436	143,7	-1,54287E+000	-9,51991E-003	0,00000E+000	-1,54400E+000	5,22717E-005	10	...........	0	-327,67
	1440	144,1	-1,54488E+000	-9,62336E-003	0,00000E+000	-1,54600E+000	4,12717E-005	10	...........	0	-327,67
	1444	144,5	-1,54689E+000	-9,85513E-003	0,00000E+000	-1,54800E+000	4,76717E-005	10	...........	0	-327,67
	1448	144,9	-1,54889E+000	-1,01125E-002	0,00000E+000	-1,55000E+000	5,46717E-005	10	...........	0	-327,67
	1452	145,3	-1,55087E+000	-1,03096E-002	0,00000E+000	-1,55200E+000	4,68717E-005	10	...........	0	-327,67
	1456	145,7	-1,55288E+000	-1,04764E-002	0,00000E+000	-1,55400E+000	5,22717E-005	10	...........	0	-327,67
	1460	146,1	-1,55488E+000	-1,09577E-002	0,00000E+000	-1,55600E+000	4,54717E-005	10	...........	0	-327,67
	1464	146,5	-1,55688E+000	-1,12092E-002	0,00000E+000	-1,55800E+000	4,50717E-005	10	...........	0	-327,67
	1468	146,9	-1,55886E+000	-1,16219E-002	0,00000E+000	-1,56000E+000	5,08717E-005	10	...........	0	-327,67
	1472	147,3	-1,56088E+000	-1,19261E-002	0,00000E+000	-1,56200E+000	4,48717E-005	10	...........	0	-327,67
	1476	147,7	-1,56286E+000	-1,16995E-002	0,00000E+000	-1,56400E+000	4,42717E-005	10	...........	0	-327,67
	1480	148,1	-1,56485E+000	-1,19154E-002	0,00000E+000	-1,56600E+000	4,28717E-005	10	...........	0	-327,67
	1484	148,5	-1,56684E+000	-1,21957E-002	0,00000E+000	-1,56800E+000	5,06717E-005	10	...........	0	-327,67
	1488	148,9	-1,56884E+000	-1,24237E-002	0,00000E+000	-1,57000E+000	5,02717E-005	10	...........	0	-327,67
	1492	149,3	-1,57086E+000	-1,24459E-002	0,00000E+000	-1,57200E+000	4,40717E-005	10	...........	0	-327,67
	1496	149,7	-1,57285E+000	-1,27198E-002	0,00000E+000	-1,57400E+000	5,26717E-005	10	...........	0	-327,67
	1500	150,1	-1,57485E+000	-1,28572E-002	0,00000E+000	-1,57600E+000	5,06717E-005	10	...........	0	-327,67
	1504	150,5	-1,57686E+000	-1,29768E-002	0,00000E+000	-1,57800E+000	5,00717E-005	10	...........	0	-327,67
	1508	150,9	-1,57885E+000	-1,33089E-002	0,00000E+000	-1,58000E+000	5,02717E-005	10	...........	0	-327,67
	1512	151,3	-1,58085E+000	-1,34801E-002	0,00000E+000	-1,58200E+000	5,10717E-005	10	...........	0	-327,67
	1516	151,7	-1,58285E+000	-1,35890E-002	0,00000E+000	-1,58400E+000	4,74717E-005	10	...........	0	-327,67
	1520	152,1	-1,58485E+000	-1,38426E-002	0,00000E+000	-1,58600E+000	5,10717E-005	10	...........	0	-327,67
	1524	152,5	-1,58686E+000	-1,40887E-002	0,00000E+000	-1,58800E+000	4,36717E-005	10	...........	0	-327,67
	1528	152,9	-1,58885E+000	-1,42880E-002	0,00000E+000	-1,59000E+000	4,86717E-005	10	...........	0	-327,67
	1532	153,3	-1,59084E+000	-1,44921E-002	0,00000E+000	-1,59200E+000	4,86717E-005	10	...........	0	-327,67
	1536	153,7	-1,59284E+000	-1,47433E-002	0,00000E+000	-1,59400E+000	4,74717E-005	10	...........	0	-327,67
	1540	154,1	-1,59484E+000	-1,49349E-002	0,00000E+000	-1,59600E+000	5,26717E-005	10	...........	0	-327,67
	1544	154,5	-1,59683E+000	-1,51237E-002	0,00000E+000	-1,59800E+000	5,02717E-005	10	...........	0	-327,67
	1548	154,9	-1,59884E+000	-1,53584E-002	0,00000E+000	-1,60000E+000	5,26717E-005	10	...........	0	-327,67
	1552	155,3	-1,60084E+000	-1,59304E-002	0,00000E+000	-1,60200E+000	5,22717E-005	10	...........	0	-327,67
	1556	155,7	-1,60284E+000	-1,65548E-002	0,00000E+000	-1,60400E+000	4,76717E-005	10	...........	0	-327,67
	1560	156,1	-1,60484E+000	-1,66239E-002	0,00000E+000	-1,60600E+000	4,38717E-005	10	...........	0	-327,67
	1564	156,5	-1,60684E+000	-1,67643E-002	0,00000E+000	-1,60800E+000	4,84717E-005	10	...........	0	-327,67
	1568	156,9	-1,60884E+000	-1,64533E-002	0,00000E+000	-1,61000E+000	4,54717E-005	10	...........	0	-327,67
	1572	157,3	-1,61084E+000	-1,66789E-002	0,00000E+000	-1,61200E+000	4,98717E-005	10	...........	0	-327,67
	1576	157,7	-1,61283E+000	-1,72569E-002	0,00000E+000	-1,61400E+000	4,76717E-005	10	...........	0	-327,67
	1580	158,1	-1,61483E+000	-1,73381E-002	0,00000E+000	-1,61600E+000	4,80717E-005	10	...........	0	-327,67
	1584	158,5	-1,61682E+000	-1,75597E-002	0,00000E+000	-1,61800E+000	4,92717E-005	10	...........	0	-327,67
	1588	158,9	-1,61881E+000	-1,82530E-002	0,00000E+000	-1,62000E+000	4,96717E-005	10	...........	0	-327,67
	1592	159,3	-1,62081E+000	-1,85290E-002	0,00000E+000	-1,62200E+000	5,16717E-005	10	...........	0	-327,67
	1596	159,7	-1,62282E+000	-1,86219E-002	0,00000E+000	-1,62400E+000	5,20717E-005	10	...........	0	-327,67
	1600	160,1	-1,62482E+000	-1,82521E-002	0,00000E+000	-1,62600E+000	4,86717E-005	10	...........	0	-327,67